Folder: Testing-Code/Testing Code/Flexural Specimen

File: K-P-K 2 F.csv
0
55.36079
93.36472
124.7406
160.8849
195.1218
226.2592
254.3926
282.8121
309.0858
333.3092
356.1497
378.2272
397.8729
422.2393
440.7883
460.4816
477.4094
494.9093
513.0768
529.0508
547.6952
562.2387
575.1133
591.135
605.0587
620.5559
632.4768
646.4958
654.8882
666.9521
679.3499
689.5542
698.5664
707.4833
663.1375
673.7232
679.6837
688.2667
698.0896
702.858
704.0024
707.5787
713.5391
710.8212
714.3497
717.5922
715.8279
715.0173
715.4941
717.2584
719.881
723.3143
726.0322
729.7516
732.8987
734.1862
735.8551
737.3333
737.5717
735.3306
733.8524
733.1371
732.5649
732.0881
730.2284
727.5104
724.7448
691.4139
624.8951
573.3013
548.4581
534.153
513.9828
502.7294
482.6069
476.9802
402.8797
342.4167
326.6335
317.3828
316.0477
302.7439
284.2426
272.274
261.0684
257.1583
253.5343
253.3913
252.8191
254.488
256.3477
258.4457
260.7822
261.8313
262.8803
263.3572
264.0247
263.6909
264.1678
263.9294
264.1678
265.4553
266.5043
267.4103
267.8871
267.7917
267.0765
267.6487
269.3176
270.2236
271.2726
272.7985
273.8476
274.8013
275.6119
276.4225
277.4716
277.9484
278.9974
279.808
280.3802
280.7617
281.0955
281.4293
281.6677
281.8108
281.8108
282.0492
282.2399
282.2399
282.1445
282.0492
281.8108
281.0955
280.3802
279.9034
279.9034
280.1418
280.1418
279.5696
279.0928
278.4252
276.9947
274.3244
269.8898
265.2168
261.0207
257.9212
255.5847
250.3872
246.5248
243.8545
241.9949
240.5643
239.0385
237.751
236.1298
235.1761
232.9826
215.0059
215.292
214.6244
213.9568
213.5277
212.1925
209.9514
207.7579
205.183
201.9405
198.0782
192.2131
187.5401
185.585
184.1545
180.1968
176.096
174.2363
172.9488
170.8508
167.942
164.7949
159.8835
155.2582
152.5402
149.8222
144.9108
138.8073
136.7569
135.8032
133.9436
130.7011
130.0812
130.2242
130.4626
129.652
106.5731
104.2843
101.5663
94.55681
91.26663
90.55138
91.9342
91.45737
91.31432
90.21759
88.7394
88.16719
87.59499
87.49962
86.92741
86.06911
84.20944
82.68356
81.63452
80.34706
78.58276
77.91519
76.05553
74.86343
73.90976
72.43156
71.57326
71.57326
71.47789
71.57326
71.00105
70.90569
70.66727
70.42885
70.33348
70.52422
70.19043
70.19043
69.95201
69.85664
69.61823
69.37981
69.37981
69.52286
69.85664
70.52422
70.66727
71.00105
71.1441
71.47789
71.81168
71.95473
72.05009
72.28851
72.28851
71.95473
72.28851
71.95473
72.05009
71.81168
71.81168
71.57326
71.23947
71.38252
71.1441
71.23947
70.95337
70.66727
70.52422
70.33348
69.99969
69.61823
69.71359
69.71359
69.23676
69.47517
69.14139
68.56918
67.99698
67.99698
68.18771
67.75856
67.61551
67.0433
66.80489
67.0433
67.37709
67.75856
68.18771
67.99698
68.09235
68.42613
68.56918
68.8076
69.04602
68.90297
69.04602
68.95065
69.18907
69.14139
69.47517
69.61823
69.85664
69.85664

File: P-K-P 3 F.csv
0
0.2384186
0.3814697
1.621246
4.243851
7.43866
11.01494
15.06805
34.04617
37.57477
45.91942
51.59378
54.93164
60.17685
65.32669
72.24083
75.10185
79.58412
84.30481
89.93149
92.50641
97.13173
100.8511
107.336
109.8156
111.8183
116.9682
120.4491
121.6412
124.7883
127.2678
128.3646
133.9436
134.0866
137.5675
140.8577
139.0934
143.4803
145.8168
147.6765
149.4408
149.8222
151.3004
152.6833
150.4898
153.78
153.9707
156.1642
154.0184
154.5906
155.3059
156.1165
156.5933
157.0225
157.4993
157.9762
158.3099
158.5484
158.9298
159.1682
159.5974
159.9789
160.3127
160.6464
160.8849
160.8849
160.7895
160.4557
159.8358
159.502
159.2636
159.0252
158.7868
158.9298
158.9298
158.7868
158.5484
158.3099
158.2146
157.9762
157.2132
156.5933
156.1642
155.6396
154.9244
154.0184
152.874
151.7773
150.7282
149.4884
148.5348
147.8195
147.4857
147.2473
147.1043
146.6751
146.2936
145.9599
145.7214
145.3876
145.1492
144.9108
144.7678
144.6724
144.6724
144.5293
144.434
144.434
144.3386
144.1956
144.1956
144.434
144.5293
144.6724
145.0062
145.3876
145.7214
145.9599
146.0552
146.0552
146.1983
146.5321
146.8658
147.2473
147.3427
147.5811
148.0579
148.6301
149.2023
149.5838
149.8222
150.0607
150.3944
150.9666
151.4435
151.9203
152.4925
152.9694
153.6369
154.4952
155.1628
155.8781
156.6887
157.1655
157.7377
158.5484
159.2636
159.8358
160.3603
160.8849
161.5047
162.1723
162.6492
163.2214
164.175
164.7472
165.2241
165.7009
166.2731
166.8453
167.5606
168.0374
168.3712
168.6096
168.848
169.3249
169.8971
170.3739
170.9461
171.6614
172.0905
172.5674
173.378
174.3317
175.1423
175.6191
176.096
176.7635
177.3834
177.9556
178.7186
179.4815
180.2921
181.1981
182.0564
182.8671
183.5346
184.2499
184.9651
185.6327
186.5387
187.397
188.2076
189.0659
189.8289
190.5441
191.2594
192.2131
193.5005
194.5496
195.4556
196.4092
197.5536
198.6027
199.5564
200.51
201.416
202.3697
203.4187
204.3247
205.2784
206.3274
207.3765
208.2348
209.3792
210.762
211.9541
213.0032
213.9091
214.8628
215.7688
216.8179
218.2484
219.5358
220.8233
222.1107
223.2552
224.4473
225.5917
226.8791
228.0235
229.1203
230.0262
231.2183
232.3627
233.5548
234.4608
235.6052
237.0358
238.657
240.0875
241.2796
242.5194
244.0453
245.4281
246.8586
248.1461
249.1951
250.2441
251.3885
252.5806
253.4866
254.2973
255.1556
256.0616
256.7768
257.349
257.9212
258.6365
259.4471
260.2577
261.116
262.0697
263.2141
264.1201
264.9307
265.7413
266.5997
267.5056
268.3163
269.0315
269.7468
270.5574
271.368
272.3217
272.9893
273.6092
273.9429
274.4198
275.0873
275.9457
276.6132
277.4239
278.1391
278.7113
279.4266
279.9034
280.4756
281.1909
282.0015
282.9075
283.7658
284.5764
285.0533
285.7208
286.4361
287.2467
288.0573
288.7726
289.4879
289.8216

File: P-K-P 3 S.csv
0
0.06375
0.1370521
0.2104062
0.2837292
0.3570729
0.430375
0.5037604
0.5770521
0.6504062
0.7237291
0.7970521
0.8703854
0.9437292
1.017031
1.090385
1.163708
1.237021
1.310375
1.383698
1.457031
1.530375
1.603729
1.677031
1.750406
1.823708
1.897073
1.970396
2.04374
2.117042
2.190427
2.263719
2.337073
2.410396
2.483729
2.557042
2.630396
2.703698
2.777042
2.850375
2.923687
2.997031
3.070364
3.143687
3.217031
3.290375
3.363677
3.437052
3.510365
3.583719
3.657052
3.730385
3.803698
3.877073
3.950365
4.023729
4.097063
4.170385
4.243698
4.317073
4.390365
4.463708
4.537052
4.610354
4.683698
4.757031
4.830354
4.903687
4.977031
5.050333
5.123698
5.197021
5.270375
5.343708
5.417052
5.490354
5.563729
5.637031
5.710385
5.783708
5.857052
5.930365
6.003729
6.077021
6.150385
6.223719
6.297031
6.370354
6.443708
6.51701
6.590354
6.663698
6.737
6.810354
6.883687
6.95701
7.030354
7.103698
7.177011
7.250385
7.323698
7.397042
7.470375
7.543719
7.617021
7.690396
7.763688
7.837052
7.910375
7.983708
8.057021
8.130375
8.203677
8.27702
8.350354
8.423667
8.49701
8.570344
8.643666
8.71701
8.790343
8.863667
8.937031
9.010344
9.083698
9.157031
9.230365
9.303677
9.377052
9.450354
9.523708
9.597032
9.670375
9.743688
9.817052
9.890344
9.963697
10.03702
10.11033
10.18368
10.25701
10.33032
10.40367
10.47701
10.55031
10.62368
10.697
10.77034
10.84368
10.91703
10.99033
11.06371
11.13701
11.21036
11.28369
11.35703
11.43034
11.50371
11.57701
11.65036
11.72369
11.79701
11.87034
11.94369
12.01699
12.09033
12.16367
12.23697
12.31033
12.38366
12.45699
12.53034
12.60369
12.67699
12.75035
12.82367
12.89702
12.97034
13.04369
13.117
13.19038
13.26367
13.33703
13.41034
13.48368
13.557
13.63035
13.70366
13.777
13.85033
13.92365
13.99699
14.07032
14.14365
14.21699
14.29032
14.36364
14.43701
14.51032
14.58368
14.657
14.73034
14.80366
14.87703
14.95032
15.02369
15.09701
15.17034
15.24366
15.31702
15.39032
15.46367
15.537
15.61031
15.68365
15.75699
15.8303
15.90365
15.97699
16.05029
16.12365
16.19698
16.27032
16.34366
16.417
16.49031
16.56369
16.63699
16.71034
16.78367
16.85701
16.93032
17.0037
17.07698
17.15034
17.22367
17.29699
17.37031
17.44366
17.51697
17.59031
17.66364
17.73695
17.81031
17.88363
17.95697
18.0303
18.10365
18.17696
18.25033
18.32365
18.397
18.47032
18.54368
18.61697
18.69035
18.76365
18.837
18.91033
18.98366
19.05698
19.13033
19.20363
19.27698
19.35031
19.42362
19.49697
19.5703
19.64363
19.71697
19.7903
19.86362
19.93699
20.0103
20.08364
20.15698
20.23033
20.30363
20.37701
20.4503
20.52366
20.59699
20.67032
20.74364
20.81701
20.8903
20.96366
21.03698
21.11029
21.18362
21.25697
21.33028
21.40363
21.47697
21.55027
21.62362
21.69696
21.7703
21.84364
21.91698
21.94662

File: PK 2 F.csv
0
0.2384186
0.333786
0.5722046
20.45631
22.88818
27.99034
30.56526
35.28595
38.48076
40.43579
46.15784
48.82813
51.25999
56.40984
59.08012
62.70409
67.71088
70.47653
71.85936
79.01192
79.39339
85.35385
89.40697
91.55273
95.65353
98.18077
104.8088
106.9069
107.0023
111.3892
114.727
118.6848
120.4967
122.3087
125.8373
130.3673
132.6561
136.4231
135.8032
140.6193
144.1956
144.9108
146.4844
149.5361
154.2091
155.735
160.0266
161.8862
163.269
165.081
168.9434
172.4243
172.6151
174.9039
177.145
179.4338
178.6709
184.9174
184.0591
187.9215
189.0659
192.4515
193.9774
196.9814
198.4119
201.0822
202.6081
204.277
206.6612
209.5222
211.8587
211.9541
213.4323
213.0985
217.1516
219.7266
220.0127
222.0154
223.0167
227.499
229.6925
227.356
230.2647
229.9309
233.7456
236.2251
236.1298
239.9445
239.0385
241.375
241.518
241.1842
246.191
246.954
247.4308
249.052
252.0084
250.9594
251.5316
254.5834
256.5861
255.0125
257.2537
260.8776
259.4471
259.161
262.6419
264.2155
263.9771
265.1691
263.6909
266.0751
268.9362
267.0765
271.7495
271.7018
271.9402
269.8898
271.2726
271.7972
272.7509
274.8013
274.5151
276.4225
277.0424
276.3748
277.7576
277.1854
277.2808
280.3326
283.1936
281.0478
284.5764
284.9579
284.338
283.6227
285.4347
286.0069
282.9552
283.2889
283.6227
283.8611
284.0042
284.338
284.8148
285.2917
285.8639
286.4361
287.0083
287.5805
288.2004
288.6772
289.0587
289.5832
290.0601
290.5369
291.0137
291.2045
291.3475
291.4429
291.4429
291.5859
291.5859
291.5859
291.3475
291.0137
290.6323
290.1554
289.7263
289.011
288.248
287.6282
287.0083
286.6745
286.5791
286.5791
286.4361
286.3407
286.1977
285.9592
285.8639
285.8639
285.8639
285.9592
285.9592
285.9592
285.8639
285.7208
285.387
285.1486
284.9102
284.9102
284.9102
284.6718
284.338
283.8135
283.2889
282.7167
282.0015
262.9757
263.5479
263.2141
261.0207
258.6841
259.9716
259.6855
258.255
256.7291
257.7305
255.5847
255.7278
257.349
257.5397
255.5847
256.8722
256.6815
256.5384
256.3
255.8231
255.0602
254.0112
252.8191
251.5316
250.5779
249.9104
249.2905
248.8613
248.4798
248.1461
247.7646
247.4308
247.1924
246.8586
246.5248
246.1433
245.8096
245.3327
244.9036
244.7605
244.5221
244.379
244.2837
244.0453
243.5684
243.2346
242.9008
242.6624
242.5194
242.424
242.281
242.1856
241.9472
241.6134
241.375
241.1366
240.8981
240.6597
240.3259
239.9445
239.6107
239.2769
238.8
238.3232
238.0848
237.751
237.2742
236.9404
216.8655
210.5236
208.3778
206.089
199.0795
192.2607
173.8071
168.5143
157.547
154.9721
147.8195
142.8127
142.4789
139.4272
136.4231
135.7555
135.0403
136.1847
134.7542
131.5117
131.3686
132.7038
131.9885
130.5103
129.9858
131.2733

File: PK 2 S.csv
0
0.03209375
0.07375
0.1154375
0.1570833
0.19875
0.2404375
0.2820833
0.32375
0.3654271
0.4070833
0.44875
0.4904271
0.5320833
0.57375
0.6154271
0.6570833
0.69875
0.7404271
0.7820833
0.82375
0.8654271
0.9070833
0.94875
0.9904271
1.032083
1.07375
1.115438
1.157083
1.19875
1.240427
1.282083
1.32375
1.365427
1.407083
1.44875
1.490427
1.532083
1.57375
1.615427
1.657083
1.69875
1.740427
1.782083
1.82375
1.865427
1.907073
1.94874
1.990427
2.032073
2.07374
2.115427
2.157073
2.19874
2.240427
2.282073
2.32374
2.365417
2.407073
2.44874
2.490417
2.532073
2.57374
2.615427
2.657073
2.69874
2.740417
2.782073
2.82374
2.865427
2.907073
2.94874
2.990417
3.032073
3.07374
3.115417
3.157073
3.19874
3.240427
3.282073
3.32374
3.365417
3.407073
3.44874
3.490417
3.532073
3.57374
3.615417
3.657073
3.69874
3.740417
3.782073
3.82374
3.865417
3.907073
3.94874
3.990417
4.032073
4.07374
4.115417
4.157073
4.19874
4.240417
4.282063
4.323729
4.365417
4.407063
4.448729
4.490417
4.532073
4.573729
4.615417
4.657063
4.698729
4.740406
4.782063
4.823729
4.865417
4.907063
4.948729
4.990406
5.032063
5.073729
5.115417
5.157063
5.198729
5.240417
5.282063
5.323729
5.365406
5.407063
5.448729
5.490417
5.532063
5.573729
5.615406
5.657063
5.698729
5.740406
5.782063
5.823729
5.865406
5.907063
5.948729
5.990406
6.032063
6.073729
6.115406
6.157063
6.198729
6.240406
6.282063
6.323729
6.365406
6.407063
6.448729
6.490406
6.532063
6.573729
6.615406
6.657052
6.698719
6.740406
6.782063
6.823719
6.865406
6.907052
6.948719
6.990406
7.032063
7.073719
7.115406
7.157052
7.198729
7.240406
7.282052
7.323719
7.365406
7.407052
7.448719
7.490406
7.532052
7.573719
7.615406
7.657052
7.698719
7.740396
7.782052
7.823729
7.865396
7.907052
7.948719
7.990396
8.032052
8.073719
8.115396
8.157052
8.198719
8.240406
8.282052
8.323719
8.365396
8.407052
8.448719
8.490396
8.532052
8.573719
8.615396
8.657052
8.698719
8.740396
8.782052
8.823719
8.865396
8.907052
8.948719
8.990396
9.032042
9.073719
9.115396
9.157052
9.198719
9.240396
9.282042
9.323719
9.365396
9.407042
9.448719
9.490396
9.532052
9.573719
9.615396
9.657042
9.698709
9.740396
9.782042
9.823709
9.865396
9.907042
9.948709
9.990385
10.03204
10.07371
10.11539
10.15704
10.19871
10.2404
10.28204
10.32371
10.36539
10.40704
10.44871
10.49039
10.53204
10.57371
10.61539
10.65704
10.69871
10.74039
10.78204
10.82371
10.86539
10.90704
10.94871
10.99039
11.03204
11.07371
11.11539
11.15704
11.19871
11.24039
11.28204
11.32371
11.36539
11.40704
11.44871
11.49039
11.53204
11.57371
11.61539
11.65704
11.69871
11.74039
11.78203
11.82371
11.86539
11.90704
11.94871
11.99039
12.03203
12.07371
12.11539
12.15703
12.19845