Folder: Testing-Code/Testing Code/Tensile Specimen

File: K-P-K 1 FT.csv
0
48.63739
92.84019
132.1316
166.6069
197.9828
226.4977
250.7687
275.3735
297.2603
320.4822
334.692
350.8091
369.072
387.2871
403.7857
415.1344
427.0077
435.0662
444.8414
450.325
459.0988
465.3454
472.6887
482.7499
492.1913
497.5796
508.1177
515.3656
519.3234
527.668
533.4377
540.4473
547.7905
552.1298
557.1842
563.097
567.4362
571.1555
577.4975
583.1241
587.8448
592.5656
600.2903
603.1513
610.0178
612.7357
617.5042
624.4183
624.9905
631.3801
637.0544
637.7697
643.0626
648.2601
653.1715
657.9876
660.3718
666.3323
669.8608
671.4821
675.1061
677.3949
684.3567
686.0733
693.2736
696.6114
697.5651
701.5705
705.8621
707.2449
710.1536
715.1127
718.2598
718.6413
720.9301
725.4124
726.1276
730.1807
735.8551
736.0935
740.8142
743.7706
747.1085
750.7801
753.6411
753.6411
761.795
761.6997
764.3223
768.3754
772.3331
773.6683
776.2909
779.6288
781.6791
787.0197
789.4993
792.3126
794.9352
796.7472
803.4706
802.9461
808.9542
809.7649
812.912
816.5359
818.1095
820.2552
823.8315
828.6953
831.7947
833.7498
837.7552
837.183
841.6176
844.7647
847.435
849.8669
851.2497
855.6843
858.3069
860.3573
863.3613
864.3151
866.127
870.3232
874.9008
874.1379
876.7605
879.6215
881.0997
883.2932
886.488
889.0629
891.4948
892.9253
894.165
898.4565
898.3135
901.556
904.7509
904.0833
909.9006
911.2835
916.3856
915.6704
919.0082
923.1091
925.684
928.0205
930.7385
933.3134
937.2234
938.3202
941.6104
943.327
945.6635
948.4291
949.192
954.8664
955.677
956.8691
958.7288
965.929
966.7874
971.2696
974.7505
975.7996
980.5679
979.9957
986.3854
981.9984
984.5734
987.2437
989.7709
992.6319
995.5406
998.2586
1001.167
1003.742
1006.412
1009.464
1012.182
1014.614
1016.712
1019.049
1021.719
1024.771
1027.25
1029.778
1032.162
1034.498
1037.168
1039.743
1042.795
1045.418
1047.707
1049.805
1051.426
1053.715
1056.099
1058.817
1061.487
1063.49
1065.016
1066.446
1067.591
1069.117
1070.833
1073.17
1075.315
1077.032
1079.035
1080.561
1082.659
1084.995
1087.046
1089.334
1091.528
1093.96
1096.439
1098.537
1100.779
1103.449
1105.785
1106.501
1104.879
1105.213
1106.644
1107.788
1108.026
1108.742
1110.506
1108.837
1107.073
1107.55
1108.026
1108.837
1110.029
1110.601
1109.219
1088.715
1083.612
1082.087
1051.044
954.8664
892.973
873.0411
856.781
832.1762
762.6533
755.9777
753.4504
744.915
741.4341
722.1222
687.9807
647.7833
608.6826
568.4376
545.2633
528.9078
506.3057
475.4066
470.5906
465.3931
451.3741
438.7856
418.9491
411.0336
404.2148
395.6318
387.001
381.9466
377.512
369.6918
357.7232
353.4794
349.5216
344.7056
336.1702
333.5476
311.47
289.6309
279.5219
270.9389
263.7386
256.5384
248.9567
239.8491
233.2211
226.8791
218.2961
201.0822
183.0101
171.423
154.0184
146.0075
81.34842
61.89346

File: K-P-K 1 ST.csv
0
0.0605625
0.1238958
0.1872187
0.2505417
0.313875
0.3772188
0.4405521
0.5038958
0.5672292
0.6305729
0.6938958
0.7572083
0.8205312
0.8838646
0.9471979
1.010531
1.073875
1.137208
1.200552
1.263906
1.32726
1.390594
1.453927
1.51725
1.580562
1.643896
1.707219
1.770552
1.833875
1.897219
1.960552
2.023885
2.087229
2.150563
2.213906
2.277229
2.340542
2.403875
2.467198
2.530521
2.593854
2.657187
2.720531
2.783864
2.847208
2.910563
2.973906
3.03724
3.100563
3.163885
3.227208
3.290542
3.353875
3.417208
3.480542
3.543885
3.607219
3.670573
3.733906
3.79724
3.860563
3.923875
3.987208
4.050521
4.113854
4.177187
4.240521
4.303864
4.367208
4.430552
4.493906
4.55724
4.620573
4.683896
4.747219
4.810542
4.873865
4.937198
5.000531
5.063865
5.127198
5.190531
5.253875
5.317219
5.380552
5.443885
5.507187
5.570521
5.633844
5.697177
5.76051
5.823843
5.887198
5.950531
6.013885
6.07724
6.140573
6.203917
6.26724
6.330552
6.393885
6.457198
6.520531
6.583854
6.647198
6.710531
6.773875
6.837208
6.900552
6.963885
7.027208
7.090521
7.153844
7.217177
7.2805
7.343833
7.407166
7.47051
7.533844
7.597198
7.660542
7.723886
7.787219
7.850542
7.913865
7.977198
8.040521
8.103854
8.167188
8.230521
8.293864
8.357198
8.420542
8.483886
8.547229
8.610552
8.673864
8.737187
8.80051
8.863844
8.927167
8.990499
9.053843
9.117188
9.180532
9.243875
9.307208
9.370552
9.433875
9.497198
9.560521
9.623843
9.687177
9.75051
9.813844
9.877177
9.94052
10.00385
10.0672
10.13053
10.19385
10.25718
10.3205
10.38382
10.44716
10.51049
10.57382
10.63717
10.70052
10.76386
10.82721
10.89055
10.9539
11.01722
11.08054
11.14386
11.20719
11.27051
11.33384
11.39719
11.46051
11.52384
11.5872
11.65053
11.71386
11.77719
11.8405
11.90382
11.96716
12.03049
12.09382
12.15715
12.2205
12.28383
12.34718
12.41052
12.47385
12.5372
12.60053
12.66385
12.72718
12.7905
12.85383
12.91717
12.9805
13.04383
13.10718
13.17052
13.23386
13.2972
13.36053
13.42384
13.48717
13.55049
13.61382
13.67716
13.74049
13.80382
13.86717
13.93051
13.99386
14.05721
14.12054
14.18385
14.24718
14.3105
14.37382
14.43717
14.50049
14.56381
14.62716
14.69049
14.75383
14.81717
14.88051
14.94384
15.00716
15.07048
15.13381
15.19713
15.26047
15.3238
15.38716
15.45049
15.51384
15.5772
15.64053
15.70387
15.7672
15.83051
15.89384
15.95717
16.0205
16.08382
16.14716
16.2105
16.27383
16.33718
16.40051
16.46385
16.52717
16.59049
16.65381
16.71713
16.78046
16.84379
16.90713
16.97047
17.03381
17.09717
17.16051
17.22384
17.28718
17.35051
17.41383
17.47716
17.54048
17.60381
17.66714
17.73048
17.79382
17.85716
17.9205
17.98384
18.04718
18.11051
18.17382
18.23715
18.30047
18.3638
18.42714
18.49047
18.55381
18.61715
18.6805
18.74384
18.80718
18.87052
18.93384
18.96756

File: P-K 3 FT.csv
-1.049042
-0.9059906
38.67149
57.6973
75.72174
95.22438
110.5309
124.1684
140.2378
156.641
171.2799
182.0564
195.2648
206.6135
221.1571
232.029
244.9512
257.2537
266.695
278.2822
291.8243
302.6962
312.8052
322.1512
332.88
339.4604
352.5257
361.3472
373.3635
383.8062
389.9574
398.3975
406.4083
417.9001
423.7175
432.2529
442.8387
446.7964
456.5239
460.1956
469.5892
477.9816
484.705
492.8589
499.8207
505.4474
512.4092
518.179
522.6612
531.4827
536.8232
546.2646
548.9826
556.2782
563.6215
568.1515
573.5397
577.7359
587.368
590.8013
595.9034
600.6241
608.778
615.8829
619.4592
622.5586
630.3787
633.1444
641.4413
646.9727
649.3568
652.8378
658.3214
664.2819
668.0488
672.102
677.824
681.4957
687.3608
691.7953
694.2749
699.1387
702.9534
707.8647
709.2953
712.347
717.9737
722.6467
725.9846
728.2734
733.9001
734.9968
742.5308
744.6289
747.7283
751.8292
755.2147
759.9354
762.3672
762.8918
766.5634
769.1383
769.7582
774.1928
774.5743
776.9108
779.9625
782.8712
785.8753
789.547
791.5497
791.8835
796.3181
802.8507
800.2281
803.566
808.9066
809.6218
812.3875
817.9664
821.3043
823.3547
824.0699
830.0305
833.9882
835.4664
838.0413
838.4705
841.6176
844.717
846.6721
848.9609
852.4418
851.5358
855.4459
858.0685
856.7333
860.0235
863.6951
859.9758
866.3177
864.6488
866.1747
869.2264
867.6529
867.1284
865.9363
867.2238
869.6556
869.0834
871.6583
866.6039
867.0807
867.939
868.9404
870.0848
871.2292
872.3259
873.1365
874.0902
874.8531
875.5684
876.4267
876.9989
877.4757
877.5711
877.5711
877.3327
877.2373
877.142
877.285
877.7142
878.2864
879.097
880.0507
880.9567
881.958
882.9594
883.913
884.9621
885.868
886.8218
887.6801
888.5861
889.2536
890.1119
890.9225
891.5901
892.21
892.7822
893.4021
893.9266
894.5465
895.1187
895.4525
895.5956
895.3571
894.7849
894.0697
893.4974
893.259
893.259
893.4974
893.8312
894.165
894.5465
894.8803
895.2141
895.4048
895.5956
895.6909
895.6909
895.4525
895.0233
894.6418
894.165
893.9266
893.7359
893.7359
893.4974
893.259
892.8776
892.5438
892.5438
892.5438
892.7822
893.116
893.3544
874.4717
843.8587
837.0876
832.7484
825.4052
824.0223
819.6354
819.54
819.1586
813.0073
801.1341
796.5565
797.3194
801.897
800.2281
799.6082
801.4202
802.1355
801.9447
799.3698
792.0265
790.1191
782.9189
768.0416
751.6384
738.1439
731.0391
718.8797
708.1509
698.5187
687.5515
680.6373
674.3431
652.0271
638.3896
619.1254
603.1513
591.4211
579.4048
559.3777
531.8165
489.7118
421.2379
337.7914
231.5521
214.1953
189.7335
166.0347
148.8209
144.434
133.8005
126.1711
123.167
121.1166
119.5431
119.1139
117.9695
117.6834
117.3019
115.5853
114.7747
111.866
115.49
112.1998
107.9559
99.13445
88.07182
69.66591
62.32262
59.27086

File: P-K 3 ST.csv
0.000302083
0.01638542
0.03386458
0.05140625
0.06888542
0.08639583
0.1039271
0.1213646
0.138875
0.1563958
0.1738854
0.191375
0.2089167
0.2263854
0.2438646
0.2614062
0.2788854
0.2963854
0.3139063
0.3313958
0.3488646
0.3663854
0.3838958
0.401375
0.4189167
0.4363958
0.4538646
0.471375
0.4888958
0.5063854
0.5238854
0.5414166
0.5588646
0.576375
0.5938959
0.6113854
0.628875
0.6464271
0.663875
0.6813542
0.6989062
0.716375
0.7338854
0.7514063
0.7688854
0.7863542
0.8038854
0.8213958
0.838875
0.8564062
0.8738958
0.8913646
0.9088646
0.9263958
0.943875
0.9613958
0.9789166
0.9963646
1.013875
1.031396
1.048875
1.066375
1.083917
1.101375
1.118854
1.136406
1.153875
1.171385
1.188906
1.206385
1.223854
1.241385
1.258896
1.276375
1.293906
1.311396
1.328865
1.346365
1.363896
1.381375
1.398885
1.416417
1.433854
1.451375
1.468896
1.486375
1.503875
1.521417
1.538875
1.556354
1.573906
1.591375
1.608885
1.626406
1.643885
1.661354
1.678885
1.696396
1.713875
1.731406
1.748896
1.766365
1.783865
1.801396
1.818875
1.836385
1.853917
1.871354
1.888875
1.906396
1.923875
1.941375
1.958906
1.976375
1.993854
2.011406
2.028875
2.046385
2.063906
2.081385
2.098854
2.116375
2.133896
2.151365
2.168906
2.186396
2.203865
2.221364
2.238896
2.256375
2.273885
2.291417
2.308854
2.326375
2.343885
2.361375
2.378875
2.396417
2.413875
2.431354
2.448896
2.466375
2.483885
2.501406
2.518885
2.536354
2.553885
2.571396
2.588865
2.606406
2.623896
2.641354
2.658854
2.676396
2.693865
2.711375
2.728917
2.746354
2.763865
2.781385
2.798875
2.816365
2.833906
2.851375
2.868854
2.886396
2.903875
2.921375
2.938896
2.956385
2.973844
2.991385
3.008885
3.026354
3.043896
3.061396
3.078854
3.096354
3.113896
3.131375
3.148885
3.166406
3.183844
3.201365
3.218885
3.236365
3.253875
3.271417
3.288875
3.306344
3.323906
3.341365
3.358875
3.376385
3.393885
3.411344
3.428875
3.446396
3.463865
3.481396
3.498885
3.516354
3.533854
3.551385
3.568865
3.586375
3.603906
3.621354
3.638865
3.656385
3.673865
3.691365
3.708906
3.726365
3.743844
3.761396
3.778865
3.796375
3.813896
3.831375
3.848844
3.866375
3.883885
3.901365
3.918896
3.936385
3.953854
3.971354
3.988896
4.006364
4.023875
4.041406
4.058844
4.076354
4.093885
4.111364
4.128865
4.146406
4.163865
4.181344
4.198896
4.216364
4.233875
4.251396
4.268875
4.286344
4.303875
4.321385
4.338864
4.356396
4.373875
4.391354
4.408854
4.426385
4.443864
4.461375
4.478906
4.496344
4.513865
4.531385
4.548875
4.566365
4.583906
4.601365
4.618844
4.636396
4.653864
4.671375
4.688896
4.706375
4.723844
4.741364
4.758885
4.776354
4.793896
4.811385
4.828854
4.846354
4.863885
4.881364
4.898875
4.916406
4.933844
4.951354
4.968885
4.986364
5.003865
5.021396
5.038865
5.056344
5.073885
5.091364
5.108864
5.126385
5.143875
5.161344
5.178864
5.190927

File: P-K-P 2 FT.csv
0
2.193451
129.8904
217.9623
301.075
378.8948
443.9831
500.5836
554.7047
606.6322
651.7887
698.5664
741.6725
784.3971
823.7362
863.4091
901.0315
939.8937
975.7519
1002.884
1037.168
1064.634
1093.102
1116.323
1138.115
1161.099
1178.789
1198.149
1216.364
1234.293
1251.125
1270.962
1288.176
1306.105
1323.366
1338.148
1354.98
1371.622
1388.168
1406.765
1417.589
1436.996
1453.924
1466.513
1483.393
1497.412
1511.192
1526.547
1543.617
1553.488
1570.749
1586.103
1599.789
1611.853
1628.017
1639.509
1655.674
1669.407
1682.138
1697.779
1706.886
1722.717
1735.449
1750.708
1760.387
1776.075
1786.28
1800.919
1811.981
1824.379
1836.586
1848.03
1864.91
1876.02
1884.413
1899.481
1911.783
1921.701
1936.054
1947.594
1961.088
1969.624
1981.306
1993.847
2006.054
2017.593
2029.467
2039.909
2049.16
2060.223
2074.242
2083.921
2095.89
2109.766
2117.252
2128.697
2138.71
2148.533
2161.36
2173.376
2182.341
2193.022
2204.18
2214.575
2224.159
2237.558
2246.571
2255.535
2265.12
2276.373
2287.245
2297.354
2307.749
2317.238
2326.87
2339.125
2346.563
2357.769
2367.449
2378.559
2387.285
2390.766
2402.544
2410.984
2423.191
2433.729
2437.687
2450.514
2460.146
2472.019
2483.129
2491.045
2501.249
2511.501
2521.086
2530.623
2538.156
2551.317
2558.184
2568.626
2574.682
2585.602
2595.52
2606.583
2614.307
2625.37
2633.715
2643.395
2652.264
2662.706
2668.762
2680.016
2688.742
2696.18
2705.288
2718.639
2726.221
2733.755
2743.387
2751.303
2743.197
2756.405
2767.944
2773.046
2781.391
2786.684
2795.315
2805.376
2810.812
2821.302
2825.832
2837.896
2844
2852.249
2864.361
2867.937
2878.952
2887.297
2890.539
2894.211
2902.555
2911.806
2914.238
2912.807
2919.626
2923.727
2927.875
2935.696
2942.848
2948.094
2957.773
2961.683
2973.175
2976.274
2984.428
2988.338
2994.823
3002.834
3010.893
3015.327
3020.144
3027.868
3036.165
3042.126
3045.654
3055.096
3062.391
3064.632
3072.453
3079.557
3088.76
3094.912
3099.68
3106.546
3115.082
3118.801
3125.477
3134.441
3138.542
3144.264
3148.842
3154.993
3160.715
3167.725
3173.59
3180.122
3185.225
3190.994
3197.241
3201.103
3209.353
3213.31
3220.224
3223.991
3226.614
3232.431
3235.817
3240.633
3240.824
3236.675
3242.636
3247.452
3246.927
3251.505
3248.978
3255.558
3253.651
3258.419
3264.475
3267.336
3265.572
3270.531
3274.536
3271.294
3277.969
3276.92
3276.682
3275.823
3280.401
3278.017
3277.063
3278.208
3277.922
3278.112
3277.874
3277.588
3277.159
3276.348
3275.299
3250.933
3238.773
3229.523
3216.505
3212.881
3192.806
3147.316
3065.3
2962.208
2804.518
2597.141
2159.739
1950.121
1257.276
1072.216
1000.071
935.4114
858.3069
797.2717
768.8046
749.8741
732.3742
625.8965
595.5219
578.6419
327.8732
-190.7349

File: P-K-P 2 ST.csv
0
0.016375
0.03558333
0.05471875
0.07386458
0.09304167
0.1121979
0.1314062
0.1505833
0.1697187
0.1888854
0.2080417
0.2272292
0.2464271
0.2655833
0.2847396
0.303875
0.3230208
0.3422083
0.361375
0.3805729
0.3997396
0.418875
0.4380521
0.4572187
0.4764062
0.4955938
0.5147396
0.5338854
0.5530313
0.5721979
0.591375
0.6105625
0.6297396
0.6488958
0.6680416
0.6872187
0.7063854
0.7255729
0.7447604
0.7638854
0.7830417
0.8021979
0.8213646
0.8405625
0.8597396
0.8788958
0.8980521
0.9172083
0.9363854
0.9555625
0.97475
0.9939166
1.013042
1.032198
1.051354
1.070531
1.08974
1.108896
1.128062
1.147208
1.166375
1.185562
1.204729
1.223917
1.243073
1.262198
1.281365
1.300531
1.319719
1.338906
1.358052
1.377219
1.396375
1.415552
1.43474
1.453906
1.473073
1.492219
1.511354
1.530531
1.549698
1.568896
1.588073
1.607219
1.626375
1.645542
1.664719
1.683927
1.703073
1.722229
1.741365
1.760521
1.779698
1.798875
1.818073
1.837229
1.856375
1.875552
1.894708
1.913896
1.933094
1.952229
1.971375
1.990531
2.009687
2.028875
2.048063
2.067229
2.086385
2.105531
2.124719
2.143885
2.163073
2.18225
2.201375
2.220531
2.239687
2.258854
2.278052
2.297229
2.316396
2.335542
2.354708
2.373885
2.393052
2.41225
2.431417
2.450531
2.469698
2.488854
2.508031
2.52724
2.546385
2.565552
2.584708
2.603875
2.623062
2.642229
2.661406
2.680562
2.699687
2.718864
2.738021
2.757208
2.776406
2.795552
2.814708
2.833875
2.853042
2.872229
2.891406
2.910563
2.929708
2.948854
2.968031
2.987198
3.006385
3.025573
3.044708
3.063875
3.083042
3.102219
3.121406
3.140573
3.159719
3.178864
3.198021
3.217198
3.236365
3.255552
3.274729
3.293864
3.313031
3.332198
3.351385
3.370573
3.389729
3.408875
3.428031
3.447177
3.466365
3.485552
3.504729
3.523885
3.543021
3.562208
3.581375
3.600563
3.61975
3.638875
3.658031
3.677177
3.696344
3.715552
3.734719
3.753885
3.773031
3.792198
3.811375
3.830552
3.84974
3.868896
3.888021
3.907187
3.926344
3.945521
3.964729
3.983885
4.003042
4.022198
4.041365
4.060552
4.079729
4.098906
4.118052
4.137187
4.156354
4.17551
4.194708
4.213896
4.233042
4.252198
4.271365
4.290531
4.309719
4.328896
4.348063
4.367208
4.386343
4.405521
4.424687
4.443885
4.463062
4.482198
4.501375
4.520531
4.539708
4.558906
4.578052
4.597219
4.616364
4.63551
4.654687
4.673864
4.693052
4.712219
4.731365
4.750542
4.769698
4.788886
4.808083
4.827219
4.846364
4.865521
4.884677
4.903864
4.923042
4.942229
4.961375
4.980521
4.999708
5.018875
5.038063
5.05724
5.076375
5.095521
5.114677
5.133854
5.153042
5.172219
5.191385
5.210542
5.229687
5.248865
5.268042
5.28724
5.306396
5.325521
5.344677
5.363844
5.383021
5.402219
5.421385
5.440542
5.459698
5.478865
5.498042
5.517219
5.536396
5.555552
5.574677
5.593854
5.61301
5.632198
5.635094